# Average Spectral response curve for IRAC 3.6 micron subarray
# Wave     Spectral Response
# angstrom  electrons / photon 
30810.60	0.001538
30828.90	0.001477
30847.30	0.001408
30865.60	0.001385
30884.00	0.001344
30902.40	0.001444
30920.80	0.001530
30939.30	0.001311
30957.80	0.001313
30976.20	0.001518
30994.80	0.001412
31013.30	0.001458
31031.90	0.001659
31050.40	0.001635
31069.00	0.001822
31087.70	0.002101
31106.30	0.002365
31125.00	0.002984
31143.70	0.003447
31162.40	0.003806
31181.10	0.004785
31199.90	0.005947
31218.70	0.006984
31237.50	0.008359
31256.30	0.010280
31275.20	0.012570
31294.00	0.015280
31312.90	0.018530
31331.90	0.022390
31350.80	0.027270
31369.80	0.032890
31388.80	0.039170
31407.80	0.046530
31426.80	0.054690
31445.90	0.063800
31464.90	0.074140
31484.10	0.085390
31503.20	0.098060
31522.30	0.111800
31541.50	0.125800
31560.70	0.141000
31579.90	0.157000
31599.20	0.173400
31618.40	0.190400
31637.70	0.207400
31657.00	0.225000
31676.40	0.242000
31695.70	0.258000
31715.10	0.275100
31734.50	0.291200
31754.00	0.305400
31773.40	0.318800
31792.90	0.331900
31812.40	0.342000
31831.90	0.349700
31851.50	0.358400
31871.10	0.364600
31890.70	0.367100
31910.30	0.369500
31929.90	0.371500
31949.60	0.371400
31969.30	0.369800
31989.00	0.368600
32008.80	0.366200
32028.60	0.361600
32048.40	0.358600
32068.20	0.357000
32088.00	0.354400
32107.90	0.352100
32127.80	0.349600
32147.70	0.347400
32167.60	0.346800
32187.60	0.347400
32207.60	0.348200
32227.60	0.347000
32247.70	0.347400
32267.70	0.350200
32287.80	0.351100
32307.90	0.352700
32328.10	0.355600
32348.20	0.358100
32368.40	0.362100
32388.70	0.365600
32408.90	0.368600
32429.20	0.372100
32449.50	0.376000
32469.80	0.381100
32490.10	0.385200
32510.50	0.388300
32530.90	0.392900
32551.30	0.397200
32571.80	0.401100
32592.20	0.405300
32612.70	0.408100
32633.20	0.410400
32653.80	0.412300
32674.40	0.413200
32695.00	0.414700
32715.60	0.416800
32736.30	0.417000
32756.90	0.416900
32777.60	0.416800
32798.40	0.415600
32819.10	0.415400
32839.90	0.414300
32860.70	0.412000
32881.60	0.410400
32902.40	0.409500
32923.30	0.409000
32944.20	0.407600
32965.20	0.406400
32986.20	0.405900
33007.10	0.403600
33028.20	0.403300
33049.20	0.404300
33070.30	0.402900
33091.40	0.402900
33112.50	0.403500
33133.70	0.403900
33154.90	0.405100
33176.10	0.404700
33197.30	0.403500
33218.60	0.404500
33239.90	0.406100
33261.20	0.407000
33282.60	0.407800
33303.90	0.407600
33325.30	0.408300
33346.80	0.410000
33368.20	0.410000
33389.70	0.409700
33411.20	0.409900
33432.80	0.409400
33454.30	0.409300
33475.90	0.409300
33497.60	0.409600
33519.20	0.409300
33540.90	0.409000
33562.60	0.409200
33584.30	0.408200
33606.10	0.408700
33627.90	0.409300
33649.70	0.408900
33671.60	0.410700
33693.50	0.411000
33715.40	0.409200
33737.30	0.411800
33759.30	0.414700
33781.30	0.415200
33803.30	0.416700
33825.30	0.418100
33847.40	0.419500
33869.50	0.422500
33891.70	0.424700
33913.80	0.427100
33936.00	0.429300
33958.20	0.430300
33980.50	0.433200
34002.80	0.434600
34025.10	0.434400
34047.40	0.436000
34069.80	0.435500
34092.20	0.434100
34114.60	0.434800
34137.10	0.434500
34159.60	0.431600
34182.10	0.429500
34204.60	0.429100
34227.20	0.427500
34249.80	0.425800
34272.50	0.424500
34295.10	0.420800
34317.80	0.417400
34340.60	0.416800
34363.30	0.416300
34386.10	0.414700
34408.90	0.413900
34431.80	0.413200
34454.60	0.412900
34477.50	0.413400
34500.50	0.413800
34523.50	0.415000
34546.50	0.416200
34569.50	0.416900
34592.60	0.419300
34615.60	0.422000
34638.80	0.424400
34661.90	0.427500
34685.10	0.429500
34708.30	0.431100
34731.60	0.434000
34754.80	0.437400
34778.20	0.440100
34801.50	0.443500
34824.90	0.447300
34848.30	0.449300
34871.70	0.451900
34895.20	0.454600
34918.70	0.455400
34942.20	0.457000
34965.80	0.458900
34989.40	0.460000
35013.00	0.461700
35036.60	0.461900
35060.30	0.460000
35084.10	0.459000
35107.80	0.460100
35131.60	0.461100
35155.40	0.461200
35179.30	0.461400
35203.10	0.461100
35227.10	0.460700
35251.00	0.460400
35275.00	0.459600
35299.00	0.459700
35323.00	0.460400
35347.10	0.459500
35371.20	0.456900
35395.40	0.455400
35419.60	0.455600
35443.80	0.454600
35468.00	0.453500
35492.30	0.453800
35516.60	0.453200
35540.90	0.452800
35565.30	0.452400
35589.70	0.451800
35614.20	0.452900
35638.60	0.453900
35663.20	0.454600
35687.70	0.454000
35712.30	0.453500
35736.90	0.453900
35761.50	0.454800
35786.20	0.456600
35810.90	0.457500
35835.70	0.457500
35860.50	0.459000
35885.30	0.460800
35910.10	0.461900
35935.00	0.462500
35959.90	0.462800
35984.90	0.462900
36009.90	0.461900
36034.90	0.460500
36060.00	0.459600
36085.10	0.457800
36110.20	0.457000
36135.40	0.456600
36160.60	0.454200
36185.80	0.452400
36211.10	0.450400
36236.40	0.448500
36261.70	0.447300
36287.10	0.445100
36312.50	0.442200
36337.90	0.440100
36363.40	0.438100
36388.90	0.436900
36414.50	0.436700
36440.10	0.435300
36465.70	0.434100
36491.40	0.434600
36517.10	0.433800
36542.80	0.433500
36568.60	0.435500
36594.40	0.435500
36620.20	0.435200
36646.10	0.436700
36672.00	0.438200
36698.00	0.440400
36724.00	0.443100
36750.00	0.444900
36776.10	0.445700
36802.20	0.448000
36828.30	0.452100
36854.50	0.454500
36880.70	0.455700
36906.90	0.458300
36933.20	0.461000
36959.50	0.463700
36985.90	0.465700
37012.30	0.466800
37038.70	0.467600
37065.20	0.469100
37091.70	0.471800
37118.30	0.474300
37144.90	0.475000
37171.50	0.474200
37198.20	0.473500
37224.90	0.473100
37251.60	0.473500
37278.40	0.474200
37305.20	0.473700
37332.10	0.472500
37359.00	0.472200
37385.90	0.471400
37412.90	0.470800
37439.90	0.470600
37466.90	0.469300
37494.00	0.467500
37521.20	0.465700
37548.30	0.465000
37575.50	0.465000
37602.80	0.462800
37630.10	0.460100
37657.40	0.459400
37684.80	0.459300
37712.20	0.458400
37739.60	0.457000
37767.10	0.456900
37794.60	0.457100
37822.20	0.456100
37849.80	0.454900
37877.50	0.455300
37905.10	0.455800
37932.90	0.455100
37960.60	0.455400
37988.40	0.454800
38016.30	0.452800
38044.20	0.453200
38072.10	0.452700
38100.10	0.448800
38128.10	0.446700
38156.20	0.445500
38184.30	0.443100
38212.40	0.441000
38240.60	0.438300
38268.80	0.435200
38297.10	0.434300
38325.40	0.433200
38353.70	0.431300
38382.10	0.431500
38410.50	0.431100
38439.00	0.429300
38467.50	0.429700
38496.10	0.430900
38524.70	0.431400
38553.30	0.433400
38582.00	0.435400
38610.70	0.436800
38639.50	0.439000
38668.30	0.441400
38697.20	0.442700
38726.10	0.442500
38755.00	0.440500
38784.00	0.436900
38813.00	0.431000
38842.10	0.422100
38871.20	0.410900
38900.40	0.396300
38929.60	0.377900
38958.90	0.355300
38988.10	0.329200
39017.50	0.300900
39046.90	0.269600
39076.30	0.236700
39105.80	0.204600
39135.30	0.172800
39164.80	0.142500
39194.40	0.115000
39224.10	0.090880
39253.80	0.070450
39283.50	0.053800
39313.30	0.040510
39343.10	0.029790
39373.00	0.021490
39402.90	0.015190
39432.90	0.010320
39462.90	0.006787
39492.90	0.004011
39523.00	0.001769
39553.20	0.001046
39583.40	0.000788
39613.60	0.000983
39643.90	0.001670
39674.20	0.001986
39704.60	0.002299
39735.00	0.002598
39765.50	0.002757
39796.00	0.002767
39826.60	0.002638
39857.20	0.002642
39887.90	0.002632
39918.60	0.002431
39949.30	0.002323
39980.10	0.002213
40011.00	0.002120
40041.90	0.002118
40072.80	0.001946
40103.80	0.001759
