# Average Spectral response curve for IRAC 4.5 micron subarray
# Wave     Spectral Response
# angstrom  electrons / photon 
37224.90	0.000829
37251.60	0.000735
37278.40	0.000676
37305.20	0.000758
37332.10	0.000738
37359.00	0.000735
37385.90	0.000749
37412.90	0.000614
37439.90	0.000581
37466.90	0.000596
37494.00	0.000559
37521.20	0.000611
37548.30	0.000609
37575.50	0.000543
37602.80	0.000517
37630.10	0.000450
37657.40	0.000298
37684.80	0.000323
37712.20	0.000395
37739.60	0.000258
37767.10	0.000219
37794.60	0.000210
37822.20	0.000279
37849.80	0.000348
37877.50	0.000235
37905.10	0.000325
37932.90	0.000516
37960.60	0.000541
37988.40	0.000546
38016.30	0.000577
38044.20	0.000384
38072.10	0.000379
38100.10	0.000747
38128.10	0.000844
38156.20	0.000657
38184.30	0.000836
38212.40	0.000961
38240.60	0.000903
38268.80	0.001188
38297.10	0.001183
38325.40	0.001009
38353.70	0.001065
38382.10	0.000944
38410.50	0.001075
38439.00	0.001189
38467.50	0.001147
38496.10	0.001186
38524.70	0.001015
38553.30	0.001059
38582.00	0.001128
38610.70	0.000848
38639.50	0.000788
38668.30	0.000751
38697.20	0.000614
38726.10	0.000561
38755.00	0.000449
38784.00	0.000459
38813.00	0.000380
38842.10	0.000158
38871.20	0.000137
38900.40	0.000140
38929.60	0.000316
38958.90	0.000485
38988.10	0.000982
39017.50	0.001367
39046.90	0.001598
39076.30	0.002326
39105.80	0.003128
39135.30	0.003736
39164.80	0.004613
39194.40	0.005613
39224.10	0.006578
39253.80	0.008000
39283.50	0.009744
39313.30	0.011300
39343.10	0.013090
39373.00	0.015270
39402.90	0.017770
39432.90	0.020630
39462.90	0.023740
39492.90	0.027580
39523.00	0.032080
39553.20	0.037100
39583.40	0.043280
39613.60	0.050640
39643.90	0.058990
39674.20	0.068890
39704.60	0.080520
39735.00	0.094260
39765.50	0.110300
39796.00	0.128300
39826.60	0.148200
39857.20	0.170300
39887.90	0.193800
39918.60	0.218800
39949.30	0.244100
39980.10	0.269200
40011.00	0.293400
40041.90	0.315200
40072.80	0.334500
40103.80	0.351200
40134.90	0.364200
40165.90	0.373700
40197.10	0.379500
40228.30	0.383400
40259.50	0.385600
40290.80	0.385000
40322.10	0.383100
40353.50	0.380800
40384.90	0.379100
40416.40	0.375400
40447.90	0.371000
40479.50	0.367000
40511.10	0.362200
40542.80	0.358100
40574.50	0.354600
40606.30	0.350200
40638.10	0.345600
40670.00	0.341300
40701.90	0.337700
40733.90	0.334600
40765.90	0.331500
40798.00	0.328600
40830.10	0.326600
40862.30	0.325200
40894.50	0.323800
40926.80	0.323000
40959.10	0.322900
40991.50	0.323600
41023.90	0.325800
41056.40	0.327700
41088.90	0.329900
41121.50	0.332600
41154.20	0.336000
41186.80	0.342200
41219.60	0.348100
41252.40	0.352500
41285.20	0.358900
41318.10	0.365900
41351.10	0.373100
41384.10	0.380600
41417.10	0.388200
41450.20	0.396300
41483.40	0.405200
41516.60	0.414600
41549.90	0.423800
41583.20	0.431700
41616.60	0.438100
41650.00	0.444700
41683.50	0.452000
41717.00	0.458200
41750.60	0.463800
41784.20	0.469100
41817.90	0.473800
41851.70	0.478200
41885.50	0.482700
41919.30	0.487400
41953.30	0.489800
41987.20	0.491300
42021.30	0.494000
42055.30	0.495900
42089.50	0.496600
42123.70	0.497200
42157.90	0.497000
42192.20	0.497300
42226.60	0.496700
42261.00	0.494600
42295.50	0.492900
42330.00	0.491200
42364.60	0.489100
42399.20	0.488100
42433.90	0.485600
42468.70	0.481400
42503.50	0.478100
42538.30	0.475700
42573.30	0.473400
42608.20	0.470900
42643.30	0.468300
42678.40	0.467200
42713.50	0.465600
42748.70	0.463500
42784.00	0.463800
42819.30	0.464500
42854.70	0.464300
42890.20	0.464700
42925.70	0.466300
42961.30	0.470000
42996.90	0.473100
43032.60	0.476200
43068.30	0.479700
43104.10	0.482100
43140.00	0.485300
43175.90	0.489200
43211.90	0.492000
43247.90	0.494600
43284.00	0.497500
43320.20	0.500700
43356.40	0.503900
43392.70	0.506300
43429.00	0.508300
43465.40	0.510100
43501.90	0.512200
43538.40	0.514200
43575.00	0.515000
43611.60	0.515500
43648.30	0.518700
43685.10	0.522200
43721.90	0.523100
43758.80	0.524500
43795.80	0.527200
43832.80	0.529200
43869.90	0.530600
43907.10	0.532900
43944.30	0.536100
43981.50	0.538400
44018.90	0.540000
44056.30	0.541700
44093.70	0.543300
44131.30	0.545400
44168.90	0.546900
44206.50	0.546600
44244.20	0.546900
44282.00	0.547800
44319.90	0.547900
44357.80	0.548200
44395.70	0.548300
44433.80	0.546700
44471.90	0.546600
44510.10	0.547100
44548.30	0.544700
44586.60	0.542400
44625.00	0.542400
44663.40	0.542500
44701.90	0.540800
44740.50	0.538400
44779.10	0.537600
44817.80	0.536000
44856.60	0.533400
44895.40	0.532000
44934.30	0.530800
44973.30	0.527700
45012.40	0.524700
45051.50	0.522700
45090.60	0.520200
45129.90	0.517500
45169.20	0.516300
45208.60	0.514200
45248.00	0.511600
45287.50	0.510400
45327.10	0.508700
45366.80	0.507100
45406.50	0.507200
45446.30	0.507100
45486.20	0.505300
45526.10	0.504200
45566.10	0.503800
45606.20	0.503200
45646.30	0.503400
45686.50	0.503200
45726.80	0.501800
45767.20	0.500700
45807.60	0.500000
45848.10	0.498400
45888.70	0.495800
45929.30	0.494400
45970.10	0.493400
46010.90	0.491700
46051.70	0.489300
46092.70	0.486500
46133.70	0.484100
46174.70	0.481600
46215.90	0.478000
46257.10	0.475300
46298.40	0.472300
46339.80	0.469200
46381.20	0.469900
46422.80	0.471000
46464.40	0.471900
46506.00	0.473800
46547.80	0.474500
46589.60	0.475900
46631.50	0.479100
46673.50	0.481900
46715.50	0.483900
46757.60	0.485700
46799.80	0.488400
46842.10	0.490500
46884.50	0.491900
46926.90	0.493800
46969.40	0.495300
47012.00	0.497000
47054.70	0.498500
47097.40	0.498700
47140.20	0.498300
47183.10	0.497100
47226.10	0.495400
47269.10	0.494500
47312.30	0.493200
47355.50	0.490000
47398.70	0.486400
47442.10	0.484500
47485.60	0.481900
47529.10	0.478000
47572.70	0.474900
47616.40	0.471800
47660.10	0.468300
47704.00	0.466000
47747.90	0.463400
47791.90	0.459300
47836.00	0.455300
47880.20	0.452100
47924.40	0.450300
47968.80	0.449100
48013.20	0.447100
48057.70	0.445500
48102.30	0.443700
48146.90	0.441900
48191.70	0.441700
48236.50	0.441700
48281.40	0.440000
48326.40	0.439400
48371.50	0.440400
48416.60	0.440500
48461.90	0.439900
48507.20	0.440300
48552.70	0.440300
48598.20	0.439900
48643.70	0.440500
48689.40	0.440400
48735.20	0.440400
48781.00	0.440900
48827.00	0.441200
48873.00	0.442900
48919.10	0.443600
48965.30	0.444100
49011.60	0.445100
49057.90	0.446400
49104.40	0.446300
49150.90	0.444400
49197.60	0.442800
49244.30	0.440600
49291.10	0.436400
49338.00	0.429600
49385.00	0.421400
49432.10	0.413600
49479.20	0.405000
49526.50	0.395500
49573.80	0.387400
49621.30	0.380700
49668.80	0.376300
49716.40	0.374800
49764.10	0.375200
49811.90	0.376900
49859.80	0.377500
49907.80	0.374700
49955.90	0.364900
50004.10	0.345100
50052.30	0.311900
50100.70	0.264600
50149.20	0.208900
50197.70	0.153900
50246.30	0.107600
50295.10	0.072470
50343.90	0.047560
50392.80	0.030910
50441.90	0.019810
50491.00	0.012450
50540.20	0.007663
50589.50	0.004488
50638.90	0.002474
50688.40	0.001182
50738.00	0.000503
50787.70	0.000261
50837.50	0.000265
50887.40	0.000247
50937.40	0.000254
50987.40	0.000204
51037.60	0.000093
51087.90	0.000060
51138.30	0.000007
51188.80	0.000088
51239.40	0.000097
51290.00	0.000214
51340.80	0.000320
51391.70	0.000320
51442.70	0.000369
51493.80	0.000377
51545.00	0.000329
51596.30	0.000420
51647.60	0.000526
51699.10	0.000526
51750.70	0.000509
51802.40	0.000542
51854.20	0.000541
51906.10	0.000470
51958.10	0.000479
52010.30	0.000516
52062.50	0.000463
52114.80	0.000418
52167.20	0.000426
52219.80	0.000415
